## w(eV)         sigma(Sm^-1)     kappa(W(mK)^-1)        L12/e(Am^-1)      L22/e^2(Wm^-1)
    0.01              350868             608.619        -7.09355e+06         2.01067e+08
    0.03              350865             608.611        -7.09351e+06         2.01066e+08
    0.05              350859             608.595        -7.09344e+06         2.01064e+08
    0.07              350851             608.571        -7.09333e+06         2.01061e+08
    0.09              350840             608.539        -7.09318e+06         2.01056e+08
    0.11              350826             608.499        -7.09299e+06         2.01051e+08
    0.13              350809             608.451        -7.09277e+06         2.01044e+08
    0.15              350790             608.395        -7.09251e+06         2.01036e+08
    0.17              350768             608.331        -7.09222e+06         2.01027e+08
    0.19              350743             608.259        -7.09188e+06         2.01017e+08
    0.21              350715             608.179        -7.09151e+06         2.01006e+08
    0.23              350684             608.092         -7.0911e+06         2.00994e+08
    0.25              350651             607.996        -7.09066e+06          2.0098e+08
    0.27              350615             607.892        -7.09018e+06         2.00966e+08
    0.29              350576              607.78        -7.08966e+06          2.0095e+08
    0.31              350534             607.661         -7.0891e+06         2.00933e+08
    0.33              350490             607.533        -7.08851e+06         2.00915e+08
    0.35              350443             607.398        -7.08788e+06         2.00896e+08
    0.37              350393             607.254        -7.08721e+06         2.00876e+08
    0.39              350340             607.103         -7.0865e+06         2.00855e+08
    0.41              350285             606.944        -7.08576e+06         2.00832e+08
    0.43              350226             606.776        -7.08498e+06         2.00809e+08
    0.45              350165             606.601        -7.08417e+06         2.00784e+08
    0.47              350101             606.418        -7.08331e+06         2.00758e+08
    0.49              350035             606.227        -7.08242e+06         2.00731e+08
    0.51              349966             606.029        -7.08149e+06         2.00703e+08
    0.53              349893             605.822        -7.08053e+06         2.00674e+08
    0.55              349819             605.608        -7.07953e+06         2.00644e+08
    0.57              349741             605.385        -7.07849e+06         2.00613e+08
    0.59              349661             605.155        -7.07741e+06          2.0058e+08
    0.61              349577             604.917         -7.0763e+06         2.00547e+08
    0.63              349491             604.672        -7.07514e+06         2.00512e+08
    0.65              349403             604.418        -7.07396e+06         2.00476e+08
    0.67              349311             604.157        -7.07273e+06         2.00439e+08
    0.69              349217             603.888        -7.07147e+06         2.00401e+08
    0.71              349120             603.611        -7.07016e+06         2.00362e+08
    0.73              349021             603.326        -7.06883e+06         2.00322e+08
    0.75              348918             603.034        -7.06745e+06          2.0028e+08
    0.77              348813             602.734        -7.06604e+06         2.00238e+08
    0.79              348705             602.426        -7.06459e+06         2.00194e+08
    0.81              348594             602.111         -7.0631e+06          2.0015e+08
    0.83              348481             601.788        -7.06157e+06         2.00104e+08
    0.85              348365             601.457        -7.06001e+06         2.00057e+08
    0.87              348246             601.118        -7.05841e+06         2.00009e+08
    0.89              348124             600.772        -7.05677e+06         1.99959e+08
    0.91              348000             600.419        -7.05509e+06         1.99909e+08
    0.93              347873             600.058        -7.05338e+06         1.99858e+08
    0.95              347743             599.689        -7.05163e+06         1.99805e+08
    0.97              347610             599.313        -7.04984e+06         1.99751e+08
    0.99              347475             598.929        -7.04802e+06         1.99697e+08
    1.01              347337             598.538        -7.04615e+06         1.99641e+08
    1.03              347196             598.139        -7.04425e+06         1.99584e+08
    1.05              347052             597.732        -7.04231e+06         1.99526e+08
    1.07              346906             597.319        -7.04033e+06         1.99466e+08
    1.09              346757             596.898        -7.03832e+06         1.99406e+08
    1.11              346606             596.469        -7.03626e+06         1.99345e+08
    1.13              346451             596.033        -7.03417e+06         1.99282e+08
    1.15              346294              595.59        -7.03205e+06         1.99218e+08
    1.17              346134             595.139        -7.02988e+06         1.99154e+08
    1.19              345972             594.681        -7.02767e+06         1.99088e+08
    1.21              345806             594.216        -7.02543e+06         1.99021e+08
    1.23              345638             593.743        -7.02315e+06         1.98953e+08
    1.25              345468             593.263        -7.02083e+06         1.98884e+08
    1.27              345294             592.776        -7.01848e+06         1.98813e+08
    1.29              345118             592.282        -7.01608e+06         1.98742e+08
    1.31              344940              591.78        -7.01365e+06         1.98669e+08
    1.33              344758             591.271        -7.01118e+06         1.98596e+08
    1.35              344574             590.756        -7.00867e+06         1.98521e+08
    1.37              344387             590.233        -7.00612e+06         1.98445e+08
    1.39              344198             589.703        -7.00354e+06         1.98368e+08
    1.41              344005             589.166        -7.00091e+06          1.9829e+08
    1.43              343811             588.621        -6.99825e+06         1.98211e+08
    1.45              343613              588.07        -6.99555e+06          1.9813e+08
    1.47              343413             587.512        -6.99281e+06         1.98049e+08
    1.49              343210             586.947        -6.99003e+06         1.97967e+08
    1.51              343004             586.375        -6.98722e+06         1.97883e+08
    1.53              342796             585.796        -6.98436e+06         1.97798e+08
    1.55              342585              585.21        -6.98147e+06         1.97712e+08
    1.57              342371             584.618        -6.97854e+06         1.97626e+08
    1.59              342155             584.018        -6.97557e+06         1.97538e+08
    1.61              341936             583.412        -6.97256e+06         1.97448e+08
    1.63              341715             582.799        -6.96951e+06         1.97358e+08
    1.65              341491             582.179        -6.96643e+06         1.97267e+08
    1.67              341264             581.553         -6.9633e+06         1.97174e+08
    1.69              341034              580.92        -6.96014e+06         1.97081e+08
    1.71              340802              580.28        -6.95694e+06         1.96986e+08
    1.73              340567             579.633         -6.9537e+06         1.96891e+08
    1.75              340330              578.98        -6.95042e+06         1.96794e+08
    1.77              340090             578.321         -6.9471e+06         1.96696e+08
    1.79              339847             577.655        -6.94374e+06         1.96597e+08
    1.81              339602             576.982        -6.94035e+06         1.96497e+08
    1.83              339354             576.303        -6.93691e+06         1.96396e+08
    1.85              339104             575.618        -6.93343e+06         1.96293e+08
    1.87              338850             574.926        -6.92992e+06          1.9619e+08
    1.89              338595             574.228        -6.92637e+06         1.96085e+08
    1.91              338336             573.523        -6.92278e+06          1.9598e+08
    1.93              338075             572.812        -6.91914e+06         1.95873e+08
    1.95              337812             572.095        -6.91547e+06         1.95765e+08
    1.97              337546             571.372        -6.91176e+06         1.95656e+08
    1.99              337277             570.642        -6.90801e+06         1.95546e+08
    2.01              337005             569.906        -6.90422e+06         1.95435e+08
    2.03              336731             569.164         -6.9004e+06         1.95323e+08
    2.05              336455             568.416        -6.89653e+06          1.9521e+08
    2.07              336176             567.662        -6.89262e+06         1.95096e+08
    2.09              335894             566.902        -6.88867e+06          1.9498e+08
    2.11              335610             566.136        -6.88469e+06         1.94864e+08
    2.13              335323             565.364        -6.88066e+06         1.94746e+08
    2.15              335034             564.586        -6.87659e+06         1.94627e+08
    2.17              334742             563.802        -6.87249e+06         1.94508e+08
    2.19              334447             563.012        -6.86834e+06         1.94387e+08
    2.21              334150             562.217        -6.86416e+06         1.94265e+08
    2.23              333851             561.415        -6.85993e+06         1.94142e+08
    2.25              333548             560.608        -6.85567e+06         1.94017e+08
    2.27              333244             559.795        -6.85136e+06         1.93892e+08
    2.29              332937             558.977        -6.84702e+06         1.93766e+08
    2.31              332627             558.153        -6.84263e+06         1.93638e+08
    2.33              332314             557.323        -6.83821e+06          1.9351e+08
    2.35              332000             556.488        -6.83374e+06          1.9338e+08
    2.37              331682             555.647        -6.82924e+06          1.9325e+08
    2.39              331362               554.8        -6.82469e+06         1.93118e+08
    2.41              331040             553.948        -6.82011e+06         1.92985e+08
    2.43              330715             553.091        -6.81548e+06         1.92851e+08
    2.45              330388             552.228        -6.81081e+06         1.92716e+08
    2.47              330058             551.361        -6.80611e+06          1.9258e+08
    2.49              329726             550.487        -6.80136e+06         1.92443e+08
    2.51              329391             549.609        -6.79657e+06         1.92305e+08
    2.53              329053             548.725        -6.79174e+06         1.92165e+08
    2.55              328714             547.836        -6.78688e+06         1.92025e+08
    2.57              328371             546.942        -6.78197e+06         1.91883e+08
    2.59              328026             546.042        -6.77702e+06         1.91741e+08
    2.61              327679             545.138        -6.77203e+06         1.91597e+08
    2.63              327330             544.229        -6.76699e+06         1.91453e+08
    2.65              326977             543.314        -6.76192e+06         1.91307e+08
    2.67              326623             542.395        -6.75681e+06          1.9116e+08
    2.69              326266             541.471        -6.75166e+06         1.91012e+08
    2.71              325906             540.541        -6.74646e+06         1.90863e+08
    2.73              325544             539.607        -6.74122e+06         1.90713e+08
    2.75              325180             538.669        -6.73595e+06         1.90562e+08
    2.77              324813             537.725        -6.73063e+06         1.90409e+08
    2.79              324444             536.777        -6.72527e+06         1.90256e+08
    2.81              324072             535.824        -6.71987e+06         1.90101e+08
    2.83              323698             534.866        -6.71443e+06         1.89946e+08
    2.85              323321             533.904        -6.70895e+06         1.89789e+08
    2.87              322942             532.937        -6.70343e+06         1.89632e+08
    2.89              322561             531.966        -6.69786e+06         1.89473e+08
    2.91              322177              530.99        -6.69226e+06         1.89313e+08
    2.93              321791              530.01        -6.68661e+06         1.89152e+08
    2.95              321403             529.025        -6.68092e+06         1.88991e+08
    2.97              321012             528.036        -6.67519e+06         1.88828e+08
    2.99              320619             527.042        -6.66942e+06         1.88664e+08
    3.01              320223             526.045        -6.66361e+06         1.88498e+08
    3.03              319825             525.043        -6.65775e+06         1.88332e+08
    3.05              319425             524.037        -6.65186e+06         1.88165e+08
    3.07              319022             523.026        -6.64592e+06         1.87997e+08
    3.09              318617             522.012        -6.63994e+06         1.87827e+08
    3.11              318209             520.994        -6.63392e+06         1.87657e+08
    3.13              317800             519.971        -6.62786e+06         1.87485e+08
    3.15              317388             518.945        -6.62176e+06         1.87313e+08
    3.17              316973             517.914        -6.61561e+06         1.87139e+08
    3.19              316556              516.88        -6.60942e+06         1.86964e+08
    3.21              316137             515.841        -6.60319e+06         1.86789e+08
    3.23              315716             514.799        -6.59692e+06         1.86612e+08
    3.25              315292             513.753        -6.59061e+06         1.86434e+08
    3.27              314866             512.704        -6.58425e+06         1.86255e+08
    3.29              314438              511.65        -6.57786e+06         1.86075e+08
    3.31              314007             510.593        -6.57142e+06         1.85894e+08
    3.33              313575             509.533        -6.56494e+06         1.85712e+08
    3.35              313139             508.469        -6.55841e+06         1.85528e+08
    3.37              312702             507.401        -6.55185e+06         1.85344e+08
    3.39              312262             506.329        -6.54524e+06         1.85159e+08
    3.41              311820             505.255        -6.53859e+06         1.84973e+08
    3.43              311376             504.176         -6.5319e+06         1.84785e+08
    3.45              310930             503.095        -6.52517e+06         1.84597e+08
    3.47              310481              502.01        -6.51839e+06         1.84407e+08
    3.49              310030             500.922        -6.51158e+06         1.84217e+08
    3.51              309577              499.83        -6.50472e+06         1.84025e+08
    3.53              309121             498.735        -6.49781e+06         1.83832e+08
    3.55              308664             497.637        -6.49087e+06         1.83638e+08
    3.57              308204             496.536        -6.48388e+06         1.83444e+08
    3.59              307742             495.432        -6.47685e+06         1.83248e+08
    3.61              307278             494.325        -6.46978e+06         1.83051e+08
    3.63              306811             493.215        -6.46267e+06         1.82853e+08
    3.65              306343             492.102        -6.45551e+06         1.82654e+08
    3.67              305872             490.986        -6.44831e+06         1.82454e+08
    3.69              305399             489.867        -6.44107e+06         1.82253e+08
    3.71              304924             488.745        -6.43379e+06         1.82051e+08
    3.73              304446              487.62        -6.42646e+06         1.81848e+08
    3.75              303967             486.492        -6.41909e+06         1.81643e+08
    3.77              303485             485.362        -6.41168e+06         1.81438e+08
    3.79              303001             484.229        -6.40423e+06         1.81232e+08
    3.81              302515             483.094        -6.39673e+06         1.81024e+08
    3.83              302027             481.956        -6.38919e+06         1.80816e+08
    3.85              301537             480.815        -6.38161e+06         1.80607e+08
    3.87              301045             479.672        -6.37399e+06         1.80396e+08
    3.89              300551             478.526        -6.36632e+06         1.80185e+08
    3.91              300054             477.378        -6.35861e+06         1.79972e+08
    3.93              299555             476.227        -6.35086e+06         1.79759e+08
    3.95              299055             475.074        -6.34307e+06         1.79544e+08
    3.97              298552             473.919        -6.33523e+06         1.79328e+08
    3.99              298047             472.761        -6.32736e+06         1.79112e+08
    4.01              297540             471.601        -6.31943e+06         1.78894e+08
    4.03              297031             470.439        -6.31147e+06         1.78675e+08
    4.05              296520             469.275        -6.30346e+06         1.78456e+08
    4.07              296007             468.108        -6.29542e+06         1.78235e+08
    4.09              295492              466.94        -6.28732e+06         1.78013e+08
    4.11              294975             465.769        -6.27919e+06          1.7779e+08
    4.13              294455             464.597        -6.27101e+06         1.77566e+08
    4.15              293934             463.422        -6.26279e+06         1.77341e+08
    4.17              293411             462.246        -6.25453e+06         1.77115e+08
    4.19              292886             461.067        -6.24623e+06         1.76888e+08
    4.21              292358             459.887        -6.23788e+06          1.7666e+08
    4.23              291829             458.705        -6.22949e+06         1.76431e+08
    4.25              291298             457.521        -6.22106e+06         1.76201e+08
    4.27              290765             456.335        -6.21259e+06          1.7597e+08
    4.29              290230             455.148        -6.20407e+06         1.75738e+08
    4.31              289692             453.959        -6.19552e+06         1.75505e+08
    4.33              289153             452.768        -6.18692e+06         1.75271e+08
    4.35              288612             451.576        -6.17827e+06         1.75036e+08
    4.37              288069             450.382        -6.16959e+06           1.748e+08
    4.39              287525             449.187        -6.16086e+06         1.74563e+08
    4.41              286978              447.99        -6.15209e+06         1.74325e+08
    4.43              286429             446.792        -6.14328e+06         1.74086e+08
    4.45              285878             445.592        -6.13442e+06         1.73845e+08
    4.47              285326             444.391        -6.12553e+06         1.73604e+08
    4.49              284772             443.189        -6.11659e+06         1.73362e+08
    4.51              284215             441.985        -6.10761e+06         1.73119e+08
    4.53              283657              440.78        -6.09858e+06         1.72875e+08
    4.55              283097             439.574        -6.08952e+06          1.7263e+08
    4.57              282535             438.367        -6.08041e+06         1.72384e+08
    4.59              281972             437.158        -6.07126e+06         1.72136e+08
    4.61              281406             435.949        -6.06207e+06         1.71888e+08
    4.63              280839             434.738        -6.05284e+06         1.71639e+08
    4.65              280269             433.526        -6.04357e+06         1.71389e+08
    4.67              279698             432.314        -6.03425e+06         1.71138e+08
    4.69              279126               431.1        -6.02489e+06         1.70886e+08
    4.71              278551             429.885        -6.01549e+06         1.70633e+08
    4.73              277975              428.67        -6.00605e+06         1.70379e+08
    4.75              277397             427.453        -5.99657e+06         1.70124e+08
    4.77              276817             426.236        -5.98705e+06         1.69867e+08
    4.79              276235             425.018        -5.97748e+06          1.6961e+08
    4.81              275652             423.799        -5.96787e+06         1.69352e+08
    4.83              275066             422.579        -5.95823e+06         1.69093e+08
    4.85              274479             421.359        -5.94854e+06         1.68834e+08
    4.87              273891             420.138        -5.93881e+06         1.68573e+08
    4.89              273301             418.917        -5.92904e+06         1.68311e+08
    4.91              272709             417.694        -5.91922e+06         1.68048e+08
    4.93              272115             416.472        -5.90937e+06         1.67784e+08
    4.95              271519             415.248        -5.89947e+06         1.67519e+08
    4.97              270922             414.025        -5.88954e+06         1.67253e+08
    4.99              270324               412.8        -5.87956e+06         1.66987e+08
    5.01              269723             411.576        -5.86955e+06         1.66719e+08
    5.03              269121             410.351        -5.85949e+06          1.6645e+08
    5.05              268518             409.125        -5.84939e+06         1.66181e+08
    5.07              267912               407.9        -5.83925e+06          1.6591e+08
    5.09              267305             406.674        -5.82908e+06         1.65639e+08
    5.11              266697             405.447        -5.81886e+06         1.65366e+08
    5.13              266087             404.221         -5.8086e+06         1.65093e+08
    5.15              265475             402.994         -5.7983e+06         1.64819e+08
    5.17              264862             401.767        -5.78796e+06         1.64543e+08
    5.19              264247              400.54        -5.77758e+06         1.64267e+08
    5.21              263631             399.313        -5.76716e+06          1.6399e+08
    5.23              263013             398.086        -5.75671e+06         1.63712e+08
    5.25              262393             396.858        -5.74621e+06         1.63433e+08
    5.27              261772             395.631        -5.73567e+06         1.63153e+08
    5.29              261150             394.404         -5.7251e+06         1.62872e+08
    5.31              260526             393.177        -5.71448e+06          1.6259e+08
    5.33              259901             391.949        -5.70383e+06         1.62308e+08
    5.35              259274             390.722        -5.69313e+06         1.62024e+08
    5.37              258645             389.495         -5.6824e+06          1.6174e+08
    5.39              258015             388.269        -5.67163e+06         1.61454e+08
    5.41              257384             387.042        -5.66082e+06         1.61168e+08
    5.43              256751             385.816        -5.64997e+06         1.60881e+08
    5.45              256117              384.59        -5.63909e+06         1.60592e+08
    5.47              255482             383.364        -5.62816e+06         1.60303e+08
    5.49              254845             382.138         -5.6172e+06         1.60013e+08
    5.51              254206             380.913         -5.6062e+06         1.59723e+08
    5.53              253567             379.688        -5.59516e+06         1.59431e+08
    5.55              252926             378.464        -5.58409e+06         1.59138e+08
    5.57              252283              377.24        -5.57297e+06         1.58845e+08
    5.59              251640             376.016        -5.56182e+06          1.5855e+08
    5.61              250995             374.793        -5.55064e+06         1.58255e+08
    5.63              250348             373.571        -5.53941e+06         1.57959e+08
    5.65              249700             372.349        -5.52815e+06         1.57662e+08
    5.67              249051             371.127        -5.51685e+06         1.57364e+08
    5.69              248401             369.906        -5.50552e+06         1.57065e+08
    5.71              247750             368.686        -5.49414e+06         1.56766e+08
    5.73              247097             367.466        -5.48274e+06         1.56465e+08
    5.75              246443             366.247        -5.47129e+06         1.56164e+08
    5.77              245788             365.029        -5.45981e+06         1.55862e+08
    5.79              245131             363.811         -5.4483e+06         1.55559e+08
    5.81              244473             362.595        -5.43675e+06         1.55255e+08
    5.83              243815             361.379        -5.42516e+06          1.5495e+08
    5.85              243155             360.163        -5.41354e+06         1.54645e+08
    5.87              242493             358.949        -5.40188e+06         1.54339e+08
    5.89              241831             357.735        -5.39019e+06         1.54032e+08
    5.91              241167             356.523        -5.37846e+06         1.53724e+08
    5.93              240503             355.311         -5.3667e+06         1.53415e+08
    5.95              239837               354.1        -5.35491e+06         1.53105e+08
    5.97              239170              352.89        -5.34308e+06         1.52795e+08
    5.99              238502             351.681        -5.33121e+06         1.52484e+08
    6.01              237833             350.473        -5.31931e+06         1.52172e+08
    6.03              237163             349.266        -5.30738e+06         1.51859e+08
    6.05              236492              348.06        -5.29542e+06         1.51545e+08
    6.07              235820             346.855        -5.28342e+06         1.51231e+08
    6.09              235147             345.651        -5.27139e+06         1.50916e+08
    6.11              234473             344.448        -5.25933e+06           1.506e+08
    6.13              233797             343.247        -5.24723e+06         1.50283e+08
    6.15              233121             342.047        -5.23511e+06         1.49965e+08
    6.17              232444             340.847        -5.22295e+06         1.49647e+08
    6.19              231766             339.649        -5.21075e+06         1.49328e+08
    6.21              231087             338.452        -5.19853e+06         1.49008e+08
    6.23              230407             337.257        -5.18628e+06         1.48688e+08
    6.25              229726             336.063        -5.17399e+06         1.48367e+08
    6.27              229045              334.87        -5.16167e+06         1.48045e+08
    6.29              228362             333.678        -5.14932e+06         1.47722e+08
    6.31              227679             332.488        -5.13695e+06         1.47399e+08
    6.33              226994             331.299        -5.12454e+06         1.47074e+08
    6.35              226309             330.111         -5.1121e+06          1.4675e+08
    6.37              225623             328.925        -5.09963e+06         1.46424e+08
    6.39              224936              327.74        -5.08713e+06         1.46098e+08
    6.41              224249             326.557        -5.07461e+06         1.45771e+08
    6.43              223560             325.375        -5.06205e+06         1.45443e+08
    6.45              222871             324.194        -5.04947e+06         1.45115e+08
    6.47              222182             323.015        -5.03685e+06         1.44785e+08
    6.49              221491             321.838        -5.02421e+06         1.44456e+08
    6.51              220800             320.662        -5.01154e+06         1.44125e+08
    6.53              220108             319.488        -4.99884e+06         1.43794e+08
    6.55              219415             318.315        -4.98612e+06         1.43462e+08
    6.57              218722             317.144        -4.97337e+06          1.4313e+08
    6.59              218028             315.974        -4.96059e+06         1.42797e+08
    6.61              217333             314.806        -4.94778e+06         1.42463e+08
    6.63              216638              313.64        -4.93495e+06         1.42129e+08
    6.65              215942             312.476        -4.92209e+06         1.41794e+08
    6.67              215245             311.313        -4.90921e+06         1.41458e+08
    6.69              214548             310.151         -4.8963e+06         1.41122e+08
    6.71              213851             308.992        -4.88336e+06         1.40785e+08
    6.73              213153             307.834         -4.8704e+06         1.40448e+08
    6.75              212454             306.678        -4.85742e+06          1.4011e+08
    6.77              211755             305.524        -4.84441e+06         1.39771e+08
    6.79              211055             304.372        -4.83138e+06         1.39432e+08
    6.81              210355             303.221        -4.81832e+06         1.39092e+08
    6.83              209654             302.073        -4.80524e+06         1.38751e+08
    6.85              208953             300.926        -4.79214e+06         1.38411e+08
    6.87              208252             299.781        -4.77901e+06         1.38069e+08
    6.89              207550             298.638        -4.76586e+06         1.37727e+08
    6.91              206847             297.497        -4.75269e+06         1.37384e+08
    6.93              206145             296.357         -4.7395e+06         1.37041e+08
    6.95              205442              295.22        -4.72628e+06         1.36697e+08
    6.97              204738             294.085        -4.71305e+06         1.36353e+08
    6.99              204034             292.951        -4.69979e+06         1.36008e+08
    7.01              203330              291.82        -4.68651e+06         1.35663e+08
    7.03              202626              290.69        -4.67321e+06         1.35317e+08
    7.05              201921             289.563         -4.6599e+06         1.34971e+08
    7.07              201216             288.438        -4.64656e+06         1.34624e+08
    7.09              200511             287.314         -4.6332e+06         1.34277e+08
    7.11              199806             286.193        -4.61982e+06         1.33929e+08
    7.13              199100             285.074        -4.60643e+06         1.33581e+08
    7.15              198394             283.957        -4.59302e+06         1.33232e+08
    7.17              197689             282.842        -4.57958e+06         1.32883e+08
    7.19              196982             281.729        -4.56613e+06         1.32534e+08
    7.21              196276             280.618        -4.55267e+06         1.32184e+08
    7.23              195570              279.51        -4.53918e+06         1.31833e+08
    7.25              194863             278.403        -4.52568e+06         1.31483e+08
    7.27              194157             277.299        -4.51217e+06         1.31131e+08
    7.29              193450             276.197        -4.49863e+06          1.3078e+08
    7.31              192743             275.097        -4.48508e+06         1.30427e+08
    7.33              192036                 274        -4.47152e+06         1.30075e+08
    7.35              191329             272.904        -4.45794e+06         1.29722e+08
    7.37              190623             271.811        -4.44435e+06         1.29369e+08
    7.39              189916              270.72        -4.43074e+06         1.29015e+08
    7.41              189209             269.632        -4.41712e+06         1.28661e+08
    7.43              188502             268.545        -4.40348e+06         1.28307e+08
    7.45              187796             267.462        -4.38984e+06         1.27952e+08
    7.47              187089              266.38        -4.37618e+06         1.27597e+08
    7.49              186383             265.301         -4.3625e+06         1.27242e+08
    7.51              185676             264.224        -4.34882e+06         1.26886e+08
    7.53              184970             263.149        -4.33512e+06          1.2653e+08
    7.55              184264             262.077        -4.32141e+06         1.26174e+08
    7.57              183558             261.007        -4.30769e+06         1.25818e+08
    7.59              182852              259.94        -4.29396e+06         1.25461e+08
    7.61              182147             258.874        -4.28022e+06         1.25104e+08
    7.63              181441             257.812        -4.26647e+06         1.24746e+08
    7.65              180736             256.752        -4.25271e+06         1.24389e+08
    7.67              180032             255.694        -4.23895e+06         1.24031e+08
    7.69              179327             254.639        -4.22517e+06         1.23673e+08
    7.71              178623             253.586        -4.21138e+06         1.23314e+08
    7.73              177919             252.536        -4.19759e+06         1.22956e+08
    7.75              177216             251.488        -4.18379e+06         1.22597e+08
    7.77              176512             250.442        -4.16998e+06         1.22238e+08
    7.79              175810             249.399        -4.15617e+06         1.21879e+08
    7.81              175107             248.359        -4.14235e+06          1.2152e+08
    7.83              174405             247.321        -4.12852e+06          1.2116e+08
    7.85              173703             246.286        -4.11469e+06           1.208e+08
    7.87              173002             245.254        -4.10086e+06          1.2044e+08
    7.89              172302             244.223        -4.08701e+06          1.2008e+08
    7.91              171601             243.196        -4.07317e+06          1.1972e+08
    7.93              170902             242.171        -4.05932e+06          1.1936e+08
    7.95              170203             241.149        -4.04546e+06         1.18999e+08
    7.97              169504             240.129        -4.03161e+06         1.18639e+08
    7.99              168806             239.112        -4.01775e+06         1.18278e+08
    8.01              168108             238.098        -4.00389e+06         1.17917e+08
    8.03              167411             237.086        -3.99002e+06         1.17557e+08
    8.05              166715             236.077        -3.97616e+06         1.17196e+08
    8.07              166019              235.07        -3.96229e+06         1.16835e+08
    8.09              165324             234.066        -3.94843e+06         1.16474e+08
    8.11              164630             233.065        -3.93456e+06         1.16113e+08
    8.13              163936             232.067        -3.92069e+06         1.15752e+08
    8.15              163243             231.071        -3.90683e+06          1.1539e+08
    8.17              162551             230.078        -3.89296e+06         1.15029e+08
    8.19              161859             229.088         -3.8791e+06         1.14668e+08
    8.21              161168               228.1        -3.86524e+06         1.14307e+08
    8.23              160478             227.116        -3.85138e+06         1.13946e+08
    8.25              159789             226.133        -3.83752e+06         1.13585e+08
    8.27              159101             225.154        -3.82367e+06         1.13224e+08
    8.29              158413             224.178        -3.80981e+06         1.12863e+08
    8.31              157726             223.204        -3.79597e+06         1.12502e+08
    8.33              157040             222.233        -3.78212e+06         1.12141e+08
    8.35              156355             221.265        -3.76829e+06          1.1178e+08
    8.37              155671             220.299        -3.75445e+06         1.11419e+08
    8.39              154988             219.337        -3.74063e+06         1.11058e+08
    8.41              154306             218.377         -3.7268e+06         1.10698e+08
    8.43              153624              217.42        -3.71299e+06         1.10337e+08
    8.45              152944             216.466        -3.69918e+06         1.09977e+08
    8.47              152265             215.515        -3.68538e+06         1.09616e+08
    8.49              151586             214.567        -3.67159e+06         1.09256e+08
    8.51              150909             213.621         -3.6578e+06         1.08896e+08
    8.53              150233             212.679        -3.64402e+06         1.08537e+08
    8.55              149557             211.739        -3.63026e+06         1.08177e+08
    8.57              148883             210.802         -3.6165e+06         1.07818e+08
    8.59              148210             209.868        -3.60275e+06         1.07458e+08
    8.61              147538             208.937        -3.58901e+06         1.07099e+08
    8.63              146867             208.009        -3.57528e+06          1.0674e+08
    8.65              146198             207.084        -3.56156e+06         1.06382e+08
    8.67              145529             206.162        -3.54786e+06         1.06023e+08
    8.69              144862             205.242        -3.53416e+06         1.05665e+08
    8.71              144196             204.326        -3.52048e+06         1.05307e+08
    8.73              143531             203.413        -3.50681e+06          1.0495e+08
    8.75              142867             202.502        -3.49315e+06         1.04592e+08
    8.77              142205             201.595        -3.47951e+06         1.04235e+08
    8.79              141544              200.69        -3.46588e+06         1.03878e+08
    8.81              140884             199.789        -3.45226e+06         1.03522e+08
    8.83              140225              198.89        -3.43866e+06         1.03166e+08
    8.85              139568             197.995        -3.42508e+06          1.0281e+08
    8.87              138912             197.102        -3.41151e+06         1.02454e+08
    8.89              138258             196.213        -3.39795e+06         1.02099e+08
    8.91              137605             195.326        -3.38442e+06         1.01744e+08
    8.93              136953             194.443         -3.3709e+06          1.0139e+08
    8.95              136303             193.562        -3.35739e+06         1.01036e+08
    8.97              135654             192.685        -3.34391e+06         1.00682e+08
    8.99              135006             191.811        -3.33044e+06         1.00328e+08
    9.01              134360             190.939        -3.31699e+06         9.99755e+07
    9.03              133716             190.071        -3.30356e+06          9.9623e+07
    9.05              133073             189.206        -3.29014e+06         9.92709e+07
    9.07              132431             188.344        -3.27675e+06         9.89192e+07
    9.09              131791             187.485        -3.26338e+06          9.8568e+07
    9.11              131153             186.629        -3.25003e+06         9.82172e+07
    9.13              130516             185.776         -3.2367e+06         9.78669e+07
    9.15              129880             184.926        -3.22339e+06          9.7517e+07
    9.17              129246              184.08         -3.2101e+06         9.71677e+07
    9.19              128614             183.236        -3.19683e+06         9.68188e+07
    9.21              127984             182.396        -3.18359e+06         9.64704e+07
    9.23              127355             181.558        -3.17037e+06         9.61226e+07
    9.25              126728             180.724        -3.15717e+06         9.57752e+07
    9.27              126102             179.893          -3.144e+06         9.54284e+07
    9.29              125478             179.065        -3.13085e+06         9.50821e+07
    9.31              124856             178.241        -3.11772e+06         9.47364e+07
    9.33              124235             177.419        -3.10462e+06         9.43913e+07
    9.35              123616             176.601        -3.09154e+06         9.40467e+07
    9.37              122999             175.785        -3.07849e+06         9.37027e+07
    9.39              122384             174.973        -3.06547e+06         9.33593e+07
    9.41              121771             174.165        -3.05247e+06         9.30165e+07
    9.43              121159             173.359         -3.0395e+06         9.26743e+07
    9.45              120549             172.556        -3.02655e+06         9.23327e+07
    9.47              119941             171.757        -3.01364e+06         9.19917e+07
    9.49              119334             170.961        -3.00075e+06         9.16514e+07
    9.51              118730             170.168        -2.98789e+06         9.13117e+07
    9.53              118127             169.378        -2.97505e+06         9.09727e+07
    9.55              117527             168.592        -2.96225e+06         9.06344e+07
    9.57              116928             167.809        -2.94948e+06         9.02967e+07
    9.59              116331             167.029        -2.93673e+06         8.99597e+07
    9.61              115736             166.252        -2.92402e+06         8.96234e+07
    9.63              115143             165.478        -2.91133e+06         8.92878e+07
    9.65              114552             164.708        -2.89868e+06          8.8953e+07
    9.67              113963             163.941        -2.88606e+06         8.86188e+07
    9.69              113375             163.177        -2.87347e+06         8.82854e+07
    9.71              112790             162.417        -2.86091e+06         8.79527e+07
    9.73              112207             161.659        -2.84838e+06         8.76208e+07
    9.75              111626             160.905        -2.83589e+06         8.72896e+07
    9.77              111046             160.155        -2.82342e+06         8.69592e+07
    9.79              110469             159.407          -2.811e+06         8.66296e+07
    9.81              109894             158.663         -2.7986e+06         8.63007e+07
    9.83              109321             157.922        -2.78624e+06         8.59727e+07
    9.85              108750             157.185        -2.77391e+06         8.56454e+07
    9.87              108181             156.451        -2.76162e+06          8.5319e+07
    9.89              107614              155.72        -2.74937e+06         8.49934e+07
    9.91              107050             154.992        -2.73714e+06         8.46686e+07
    9.93              106487             154.268        -2.72496e+06         8.43447e+07
    9.95              105927             153.547        -2.71281e+06         8.40216e+07
    9.97              105368             152.829        -2.70069e+06         8.36993e+07
    9.99              104812             152.115        -2.68862e+06          8.3378e+07
   10.01              104258             151.404        -2.67658e+06         8.30575e+07
   10.03              103706             150.696        -2.66457e+06         8.27378e+07
   10.05              103157             149.992        -2.65261e+06         8.24191e+07
   10.07              102609             149.291        -2.64068e+06         8.21013e+07
   10.09              102064             148.594        -2.62879e+06         8.17843e+07
   10.11              101521             147.899        -2.61694e+06         8.14683e+07
   10.13              100980             147.209        -2.60512e+06         8.11532e+07
   10.15              100442             146.521        -2.59335e+06          8.0839e+07
   10.17             99905.7             145.837        -2.58162e+06         8.05258e+07
   10.19             99371.7             145.156        -2.56992e+06         8.02135e+07
   10.21               98840             144.479        -2.55827e+06         7.99022e+07
   10.23             98310.6             143.805        -2.54665e+06         7.95918e+07
   10.25             97783.4             143.135        -2.53508e+06         7.92824e+07
   10.27             97258.6             142.467        -2.52354e+06          7.8974e+07
   10.29             96736.1             141.804        -2.51205e+06         7.86665e+07
   10.31             96215.9             141.143         -2.5006e+06         7.83601e+07
   10.33             95698.1             140.487        -2.48919e+06         7.80546e+07
   10.35             95182.6             139.833        -2.47782e+06         7.77502e+07
   10.37             94669.4             139.183         -2.4665e+06         7.74467e+07
   10.39             94158.7             138.536        -2.45521e+06         7.71443e+07
   10.41             93650.2             137.893        -2.44397e+06         7.68429e+07
   10.43             93144.2             137.253        -2.43278e+06         7.65426e+07
   10.45             92640.5             136.617        -2.42162e+06         7.62432e+07
   10.47             92139.3             135.984        -2.41051e+06          7.5945e+07
   10.49             91640.4             135.355        -2.39944e+06         7.56478e+07
   10.51             91143.9             134.729        -2.38842e+06         7.53516e+07
   10.53             90649.9             134.106        -2.37744e+06         7.50565e+07
   10.55             90158.3             133.487        -2.36651e+06         7.47625e+07
   10.57             89669.1             132.872        -2.35562e+06         7.44696e+07
   10.59             89182.4              132.26        -2.34477e+06         7.41777e+07
   10.61             88698.1             131.651        -2.33397e+06          7.3887e+07
   10.63             88216.2             131.046        -2.32322e+06         7.35973e+07
   10.65             87736.9             130.444        -2.31251e+06         7.33088e+07
   10.67             87259.9             129.846        -2.30184e+06         7.30214e+07
   10.69             86785.5             129.251        -2.29123e+06         7.27351e+07
   10.71             86313.6              128.66        -2.28066e+06         7.24499e+07
   10.73             85844.1             128.073        -2.27013e+06         7.21658e+07
   10.75             85377.1             127.488        -2.25965e+06         7.18829e+07
   10.77             84912.7             126.908        -2.24922e+06         7.16012e+07
   10.79             84450.7             126.331        -2.23884e+06         7.13205e+07
   10.81             83991.2             125.757         -2.2285e+06         7.10411e+07
   10.83             83534.3             125.187        -2.21821e+06         7.07628e+07
   10.85             83079.9              124.62        -2.20797e+06         7.04856e+07
   10.87               82628             124.057        -2.19778e+06         7.02097e+07
   10.89             82178.7             123.498        -2.18763e+06         6.99349e+07
   10.91             81731.9             122.942        -2.17753e+06         6.96612e+07
   10.93             81287.6             122.389        -2.16748e+06         6.93888e+07
   10.95             80845.9              121.84        -2.15748e+06         6.91176e+07
   10.97             80406.7             121.295        -2.14753e+06         6.88475e+07
   10.99             79970.1             120.753        -2.13763e+06         6.85787e+07
   11.01               79536             120.215        -2.12777e+06          6.8311e+07
   11.03             79104.5              119.68        -2.11797e+06         6.80446e+07
   11.05             78675.6             119.149        -2.10821e+06         6.77794e+07
   11.07             78249.3             118.622         -2.0985e+06         6.75154e+07
   11.09             77825.5             118.098        -2.08885e+06         6.72527e+07
   11.11             77404.3             117.577        -2.07924e+06         6.69911e+07
   11.13             76985.7             117.061        -2.06968e+06         6.67308e+07
   11.15             76569.7             116.547        -2.06018e+06         6.64717e+07
   11.17             76156.2             116.038        -2.05072e+06         6.62139e+07
   11.19             75745.4             115.532        -2.04131e+06         6.59573e+07
   11.21             75337.1             115.029        -2.03196e+06          6.5702e+07
   11.23             74931.5             114.531        -2.02265e+06         6.54479e+07
   11.25             74528.4             114.035         -2.0134e+06         6.51951e+07
   11.27               74128             113.544        -2.00419e+06         6.49435e+07
   11.29             73730.1             113.056        -1.99504e+06         6.46932e+07
   11.31             73334.9             112.571        -1.98594e+06         6.44442e+07
   11.33             72942.2             112.091        -1.97689e+06         6.41964e+07
   11.35             72552.2             111.613        -1.96789e+06         6.39499e+07
   11.37             72164.8              111.14        -1.95894e+06         6.37047e+07
   11.39               71780              110.67        -1.95004e+06         6.34608e+07
   11.41             71397.8             110.204         -1.9412e+06         6.32181e+07
   11.43             71018.2             109.741         -1.9324e+06         6.29768e+07
   11.45             70641.2             109.282        -1.92366e+06         6.27367e+07
   11.47             70266.9             108.827        -1.91497e+06         6.24979e+07
   11.49             69895.1             108.375        -1.90633e+06         6.22604e+07
   11.51               69526             107.927        -1.89775e+06         6.20242e+07
   11.53             69159.5             107.483        -1.88921e+06         6.17893e+07
   11.55             68795.6             107.042        -1.88073e+06         6.15558e+07
   11.57             68434.3             106.605         -1.8723e+06         6.13235e+07
   11.59             68075.7             106.171        -1.86393e+06         6.10925e+07
   11.61             67719.7             105.741         -1.8556e+06         6.08628e+07
   11.63             67366.2             105.315        -1.84733e+06         6.06345e+07
   11.65             67015.4             104.893        -1.83911e+06         6.04074e+07
   11.67             66667.2             104.474        -1.83094e+06         6.01817e+07
   11.69             66321.6             104.059        -1.82282e+06         5.99573e+07
   11.71             65978.7             103.647        -1.81476e+06         5.97342e+07
   11.73             65638.3              103.24        -1.80675e+06         5.95124e+07
   11.75             65300.6             102.835        -1.79879e+06          5.9292e+07
   11.77             64965.4             102.435        -1.79089e+06         5.90729e+07
   11.79             64632.9             102.038        -1.78303e+06         5.88551e+07
   11.81             64302.9             101.645        -1.77523e+06         5.86386e+07
   11.83             63975.6             101.256        -1.76749e+06         5.84234e+07
   11.85             63650.9              100.87        -1.75979e+06         5.82096e+07
   11.87             63328.8             100.488        -1.75215e+06         5.79971e+07
   11.89             63009.2              100.11        -1.74456e+06          5.7786e+07
   11.91             62692.3             99.7348        -1.73702e+06         5.75761e+07
   11.93             62377.9             99.3639        -1.72954e+06         5.73677e+07
   11.95             62066.2             98.9965        -1.72211e+06         5.71605e+07
   11.97               61757             98.6329        -1.71473e+06         5.69547e+07
   11.99             61450.4              98.273        -1.70741e+06         5.67502e+07
   12.01             61146.4             97.9168        -1.70013e+06          5.6547e+07
   12.03               60845             97.5642        -1.69292e+06         5.63452e+07
   12.05             60546.1             97.2154        -1.68575e+06         5.61447e+07
   12.07             60249.8             96.8702        -1.67863e+06         5.59455e+07
   12.09             59956.1             96.5287        -1.67157e+06         5.57477e+07
   12.11             59664.9             96.1909        -1.66456e+06         5.55512e+07
   12.13             59376.3             95.8568        -1.65761e+06         5.53561e+07
   12.15             59090.3             95.5264         -1.6507e+06         5.51623e+07
   12.17             58806.8             95.1997        -1.64385e+06         5.49698e+07
   12.19             58525.8             94.8766        -1.63705e+06         5.47787e+07
   12.21             58247.4             94.5573        -1.63031e+06         5.45889e+07
   12.23             57971.5             94.2416        -1.62361e+06         5.44004e+07
   12.25             57698.2             93.9296        -1.61697e+06         5.42133e+07
   12.27             57427.4             93.6213        -1.61038e+06         5.40274e+07
   12.29             57159.1             93.3166        -1.60385e+06          5.3843e+07
   12.31             56893.3             93.0157        -1.59736e+06         5.36598e+07
   12.33             56630.1             92.7184        -1.59093e+06          5.3478e+07
   12.35             56369.3             92.4247        -1.58455e+06         5.32975e+07
   12.37               56111             92.1348        -1.57822e+06         5.31184e+07
   12.39             55855.3             91.8485        -1.57195e+06         5.29406e+07
   12.41               55602             91.5658        -1.56572e+06         5.27641e+07
   12.43             55351.2             91.2869        -1.55955e+06         5.25889e+07
   12.45             55102.9             91.0115        -1.55343e+06          5.2415e+07
   12.47             54857.1             90.7399        -1.54736e+06         5.22425e+07
   12.49             54613.7             90.4718        -1.54134e+06         5.20713e+07
   12.51             54372.8             90.2075        -1.53538e+06         5.19014e+07
   12.53             54134.4             89.9467        -1.52946e+06         5.17329e+07
   12.55             53898.4             89.6896         -1.5236e+06         5.15656e+07
   12.57             53664.8             89.4361        -1.51779e+06         5.13997e+07
   12.59             53433.7             89.1862        -1.51203e+06         5.12351e+07
   12.61               53205               88.94        -1.50632e+06         5.10717e+07
   12.63             52978.8             88.6973        -1.50066e+06         5.09097e+07
   12.65             52754.9             88.4582        -1.49505e+06          5.0749e+07
   12.67             52533.5             88.2228         -1.4895e+06         5.05897e+07
   12.69             52314.4             87.9909        -1.48399e+06         5.04316e+07
   12.71             52097.8             87.7626        -1.47853e+06         5.02748e+07
   12.73             51883.5             87.5379        -1.47313e+06         5.01193e+07
   12.75             51671.6             87.3168        -1.46777e+06         4.99651e+07
   12.77             51462.1             87.0992        -1.46247e+06         4.98122e+07
   12.79               51255             86.8851        -1.45722e+06         4.96606e+07
   12.81             51050.2             86.6746        -1.45201e+06         4.95103e+07
   12.83             50847.7             86.4677        -1.44686e+06         4.93612e+07
   12.85             50647.6             86.2642        -1.44175e+06         4.92135e+07
   12.87             50449.8             86.0643         -1.4367e+06          4.9067e+07
   12.89             50254.4             85.8679        -1.43169e+06         4.89218e+07
   12.91             50061.3             85.6749        -1.42674e+06         4.87779e+07
   12.93             49870.4             85.4855        -1.42183e+06         4.86352e+07
   12.95             49681.9             85.2995        -1.41697e+06         4.84938e+07
   12.97             49495.7              85.117        -1.41216e+06         4.83537e+07
   12.99             49311.7             84.9379         -1.4074e+06         4.82149e+07
   13.01             49130.1             84.7623        -1.40269e+06         4.80773e+07
   13.03             48950.6             84.5901        -1.39803e+06         4.79409e+07
   13.05             48773.5             84.4213        -1.39341e+06         4.78058e+07
   13.07             48598.6             84.2559        -1.38884e+06          4.7672e+07
   13.09             48425.9             84.0939        -1.38433e+06         4.75394e+07
   13.11             48255.5             83.9352        -1.37985e+06          4.7408e+07
   13.13             48087.3               83.78        -1.37543e+06         4.72779e+07
   13.15             47921.3              83.628        -1.37106e+06          4.7149e+07
   13.17             47757.5             83.4794        -1.36673e+06         4.70214e+07
   13.19             47595.9             83.3341        -1.36245e+06         4.68949e+07
   13.21             47436.5             83.1922        -1.35821e+06         4.67697e+07
   13.23             47279.2             83.0535        -1.35403e+06         4.66458e+07
   13.25             47124.1              82.918        -1.34989e+06          4.6523e+07
   13.27             46971.2             82.7858        -1.34579e+06         4.64014e+07
   13.29             46820.4             82.6569        -1.34175e+06         4.62811e+07
   13.31             46671.8             82.5312        -1.33775e+06         4.61619e+07
   13.33             46525.3             82.4087        -1.33379e+06          4.6044e+07
   13.35             46380.9             82.2893        -1.32988e+06         4.59273e+07
   13.37             46238.6             82.1732        -1.32602e+06         4.58117e+07
   13.39             46098.4             82.0601         -1.3222e+06         4.56973e+07
   13.41             45960.3             81.9503        -1.31843e+06         4.55841e+07
   13.43             45824.3             81.8435         -1.3147e+06         4.54721e+07
   13.45             45690.3             81.7398        -1.31102e+06         4.53613e+07
   13.47             45558.4             81.6392        -1.30738e+06         4.52516e+07
   13.49             45428.6             81.5416        -1.30379e+06         4.51431e+07
   13.51             45300.8             81.4471        -1.30024e+06         4.50358e+07
   13.53               45175             81.3556        -1.29674e+06         4.49296e+07
   13.55             45051.2              81.267        -1.29328e+06         4.48245e+07
   13.57             44929.5             81.1815        -1.28986e+06         4.47207e+07
   13.59             44809.7             81.0989        -1.28649e+06         4.46179e+07
   13.61             44691.9             81.0192        -1.28316e+06         4.45163e+07
   13.63             44576.1             80.9424        -1.27987e+06         4.44158e+07
   13.65             44462.2             80.8685        -1.27663e+06         4.43165e+07
   13.67             44350.3             80.7975        -1.27343e+06         4.42182e+07
   13.69             44240.4             80.7293        -1.27028e+06         4.41211e+07
   13.71             44132.4             80.6639        -1.26716e+06         4.40251e+07
   13.73             44026.3             80.6013        -1.26409e+06         4.39302e+07
   13.75             43922.1             80.5415        -1.26106e+06         4.38365e+07
   13.77             43819.8             80.4844        -1.25807e+06         4.37438e+07
   13.79             43719.4             80.4301        -1.25512e+06         4.36522e+07
   13.81             43620.9             80.3784        -1.25222e+06         4.35617e+07
   13.83             43524.2             80.3294        -1.24935e+06         4.34722e+07
   13.85             43429.4              80.283        -1.24653e+06         4.33839e+07
   13.87             43336.4             80.2393        -1.24375e+06         4.32966e+07
   13.89             43245.3             80.1981        -1.24101e+06         4.32104e+07
   13.91               43156             80.1596        -1.23831e+06         4.31253e+07
   13.93             43068.5             80.1235        -1.23564e+06         4.30412e+07
   13.95             42982.8               80.09        -1.23302e+06         4.29581e+07
   13.97             42898.9              80.059        -1.23044e+06         4.28761e+07
   13.99             42816.8             80.0304         -1.2279e+06         4.27952e+07
   14.01             42736.4             80.0042         -1.2254e+06         4.27153e+07
   14.03             42657.8             79.9805        -1.22293e+06         4.26364e+07
   14.05               42581             79.9591        -1.22051e+06         4.25585e+07
   14.07             42505.8             79.9401        -1.21812e+06         4.24817e+07
   14.09             42432.4             79.9235        -1.21578e+06         4.24059e+07
   14.11             42360.7             79.9091        -1.21347e+06          4.2331e+07
   14.13             42290.7              79.897         -1.2112e+06         4.22572e+07
   14.15             42222.4             79.8871        -1.20896e+06         4.21844e+07
   14.17             42155.8             79.8794        -1.20677e+06         4.21126e+07
   14.19             42090.8              79.874        -1.20461e+06         4.20417e+07
   14.21             42027.5             79.8707        -1.20249e+06         4.19718e+07
   14.23             41965.8             79.8695         -1.2004e+06         4.19029e+07
   14.25             41905.8             79.8704        -1.19836e+06          4.1835e+07
   14.27             41847.3             79.8734        -1.19634e+06         4.17681e+07
   14.29             41790.5             79.8784        -1.19437e+06         4.17021e+07
   14.31             41735.3             79.8854        -1.19243e+06          4.1637e+07
   14.33             41681.6             79.8944        -1.19053e+06         4.15729e+07
   14.35             41629.6             79.9054        -1.18866e+06         4.15097e+07
   14.37             41579.1             79.9183        -1.18683e+06         4.14475e+07
   14.39             41530.1              79.933        -1.18503e+06         4.13862e+07
   14.41             41482.7             79.9497        -1.18327e+06         4.13258e+07
   14.43             41436.8             79.9682        -1.18154e+06         4.12663e+07
   14.45             41392.4             79.9884        -1.17985e+06         4.12078e+07
   14.47             41349.5             80.0105        -1.17819e+06         4.11501e+07
   14.49             41308.1             80.0343        -1.17656e+06         4.10934e+07
   14.51             41268.2             80.0598        -1.17497e+06         4.10375e+07
   14.53             41229.8             80.0871        -1.17341e+06         4.09826e+07
   14.55             41192.8             80.1159        -1.17189e+06         4.09285e+07
   14.57             41157.2             80.1464         -1.1704e+06         4.08753e+07
   14.59             41123.1             80.1785        -1.16894e+06         4.08229e+07
   14.61             41090.5             80.2122        -1.16751e+06         4.07714e+07
   14.63             41059.2             80.2474        -1.16612e+06         4.07208e+07
   14.65             41029.3             80.2841        -1.16476e+06         4.06711e+07
   14.67             41000.8             80.3223        -1.16343e+06         4.06221e+07
   14.69             40973.7             80.3619        -1.16213e+06          4.0574e+07
   14.71               40948              80.403        -1.16086e+06         4.05268e+07
   14.73             40923.6             80.4454        -1.15963e+06         4.04804e+07
   14.75             40900.5             80.4892        -1.15842e+06         4.04348e+07
   14.77             40878.8             80.5343        -1.15725e+06           4.039e+07
   14.79             40858.4             80.5808         -1.1561e+06          4.0346e+07
   14.81             40839.3             80.6285        -1.15499e+06         4.03029e+07
   14.83             40821.5             80.6775        -1.15391e+06         4.02605e+07
   14.85               40805             80.7276        -1.15286e+06         4.02189e+07
   14.87             40789.8              80.779        -1.15183e+06         4.01781e+07
   14.89             40775.8             80.8315        -1.15084e+06         4.01381e+07
   14.91               40763             80.8852        -1.14987e+06         4.00989e+07
   14.93             40751.5             80.9399        -1.14894e+06         4.00605e+07
   14.95             40741.3             80.9957        -1.14803e+06         4.00228e+07
   14.97             40732.2             81.0526        -1.14715e+06         3.99858e+07
   14.99             40724.4             81.1104         -1.1463e+06         3.99496e+07
   15.01             40717.7             81.1693        -1.14548e+06         3.99142e+07
   15.03             40712.3             81.2291        -1.14468e+06         3.98795e+07
   15.05               40708             81.2899        -1.14392e+06         3.98455e+07
   15.07             40704.8             81.3515        -1.14318e+06         3.98122e+07
   15.09             40702.8             81.4141        -1.14246e+06         3.97797e+07
   15.11               40702             81.4774        -1.14178e+06         3.97479e+07
   15.13             40702.2             81.5416        -1.14112e+06         3.97168e+07
   15.15             40703.6             81.6066        -1.14049e+06         3.96864e+07
   15.17             40706.1             81.6724        -1.13988e+06         3.96567e+07
   15.19             40709.7             81.7389         -1.1393e+06         3.96277e+07
   15.21             40714.3             81.8061        -1.13874e+06         3.95994e+07
   15.23             40720.1              81.874        -1.13821e+06         3.95717e+07
   15.25             40726.8             81.9425        -1.13771e+06         3.95448e+07
   15.27             40734.7             82.0117        -1.13723e+06         3.95185e+07
   15.29             40743.5             82.0815        -1.13678e+06         3.94928e+07
   15.31             40753.4             82.1519        -1.13635e+06         3.94678e+07
   15.33             40764.3             82.2229        -1.13594e+06         3.94435e+07
   15.35             40776.3             82.2943        -1.13556e+06         3.94198e+07
   15.37             40789.2             82.3663        -1.13521e+06         3.93967e+07
   15.39             40803.1             82.4388        -1.13487e+06         3.93743e+07
   15.41             40817.9             82.5117        -1.13456e+06         3.93525e+07
   15.43             40833.7             82.5851        -1.13428e+06         3.93314e+07
   15.45             40850.5             82.6588        -1.13401e+06         3.93108e+07
   15.47             40868.2              82.733        -1.13377e+06         3.92909e+07
   15.49             40886.8             82.8075        -1.13356e+06         3.92715e+07
   15.51             40906.4             82.8823        -1.13336e+06         3.92528e+07
   15.53             40926.9             82.9575        -1.13319e+06         3.92346e+07
   15.55             40948.2             83.0329        -1.13304e+06          3.9217e+07
   15.57             40970.5             83.1086        -1.13291e+06         3.92001e+07
   15.59             40993.6             83.1846         -1.1328e+06         3.91836e+07
   15.61             41017.5             83.2608        -1.13271e+06         3.91678e+07
   15.63             41042.4             83.3372        -1.13265e+06         3.91525e+07
   15.65             41068.1             83.4137         -1.1326e+06         3.91378e+07
   15.67             41094.6             83.4904        -1.13258e+06         3.91236e+07
   15.69             41121.9             83.5673        -1.13258e+06           3.911e+07
   15.71               41150             83.6443         -1.1326e+06         3.90969e+07
   15.73               41179             83.7213        -1.13263e+06         3.90844e+07
   15.75             41208.7             83.7984        -1.13269e+06         3.90724e+07
   15.77             41239.2             83.8756        -1.13277e+06         3.90609e+07
   15.79             41270.5             83.9528        -1.13286e+06         3.90499e+07
   15.81             41302.6               84.03        -1.13298e+06         3.90394e+07
   15.83             41335.4             84.1072        -1.13312e+06         3.90295e+07
   15.85             41368.9             84.1844        -1.13327e+06           3.902e+07
   15.87             41403.2             84.2615        -1.13344e+06         3.90111e+07
   15.89             41438.2             84.3385        -1.13363e+06         3.90026e+07
   15.91             41473.9             84.4155        -1.13384e+06         3.89946e+07
   15.93             41510.3             84.4923        -1.13407e+06         3.89871e+07
   15.95             41547.4              84.569        -1.13431e+06         3.89801e+07
   15.97             41585.2             84.6456        -1.13458e+06         3.89735e+07
   15.99             41623.6              84.722        -1.13486e+06         3.89674e+07
   16.01             41662.7             84.7982        -1.13515e+06         3.89618e+07
   16.03             41702.5             84.8743        -1.13547e+06         3.89566e+07
   16.05             41742.9             84.9501         -1.1358e+06         3.89519e+07
   16.07               41784             85.0256        -1.13615e+06         3.89476e+07
   16.09             41825.6             85.1009        -1.13651e+06         3.89437e+07
   16.11             41867.9              85.176        -1.13689e+06         3.89403e+07
   16.13             41910.8             85.2507        -1.13729e+06         3.89373e+07
   16.15             41954.2             85.3252         -1.1377e+06         3.89347e+07
   16.17             41998.3             85.3993        -1.13813e+06         3.89325e+07
   16.19             42042.9             85.4731        -1.13857e+06         3.89308e+07
   16.21             42088.1             85.5465        -1.13903e+06         3.89294e+07
   16.23             42133.9             85.6196         -1.1395e+06         3.89285e+07
   16.25             42180.2             85.6923        -1.13999e+06         3.89279e+07
   16.27               42227             85.7646        -1.14049e+06         3.89278e+07
   16.29             42274.4             85.8365        -1.14101e+06          3.8928e+07
   16.31             42322.3             85.9079        -1.14154e+06         3.89286e+07
   16.33             42370.7             85.9789        -1.14209e+06         3.89296e+07
   16.35             42419.6             86.0495        -1.14265e+06         3.89309e+07
   16.37               42469             86.1196        -1.14322e+06         3.89326e+07
   16.39             42518.8             86.1892        -1.14381e+06         3.89347e+07
   16.41             42569.2             86.2583        -1.14441e+06         3.89371e+07
   16.43               42620             86.3268        -1.14502e+06         3.89399e+07
   16.45             42671.3             86.3949        -1.14565e+06          3.8943e+07
   16.47               42723             86.4624        -1.14629e+06         3.89464e+07
   16.49             42775.2             86.5294        -1.14694e+06         3.89502e+07
   16.51             42827.8             86.5958         -1.1476e+06         3.89544e+07
   16.53             42880.8             86.6616        -1.14828e+06         3.89588e+07
   16.55             42934.2             86.7268        -1.14897e+06         3.89636e+07
   16.57               42988             86.7914        -1.14967e+06         3.89687e+07
   16.59             43042.3             86.8554        -1.15038e+06         3.89741e+07
   16.61             43096.9             86.9188        -1.15111e+06         3.89798e+07
   16.63             43151.9             86.9816        -1.15184e+06         3.89858e+07
   16.65             43207.3             87.0437        -1.15259e+06         3.89921e+07
   16.67               43263             87.1051        -1.15335e+06         3.89986e+07
   16.69             43319.1             87.1659        -1.15411e+06         3.90055e+07
   16.71             43375.5             87.2259        -1.15489e+06         3.90127e+07
   16.73             43432.3             87.2853        -1.15568e+06         3.90201e+07
   16.75             43489.4              87.344        -1.15648e+06         3.90278e+07
   16.77             43546.8              87.402        -1.15729e+06         3.90358e+07
   16.79             43604.5             87.4592        -1.15811e+06          3.9044e+07
   16.81             43662.6             87.5158        -1.15894e+06         3.90526e+07
   16.83             43720.9             87.5715        -1.15978e+06         3.90613e+07
   16.85             43779.6             87.6266        -1.16063e+06         3.90703e+07
   16.87             43838.5             87.6808        -1.16149e+06         3.90796e+07
   16.89             43897.7             87.7343        -1.16236e+06         3.90891e+07
   16.91             43957.1              87.787        -1.16323e+06         3.90988e+07
   16.93             44016.8             87.8389        -1.16412e+06         3.91088e+07
   16.95             44076.8             87.8901        -1.16501e+06          3.9119e+07
   16.97               44137             87.9404        -1.16591e+06         3.91294e+07
   16.99             44197.4             87.9899        -1.16682e+06           3.914e+07
   17.01             44258.1             88.0386        -1.16774e+06         3.91509e+07
   17.03               44319             88.0864        -1.16867e+06          3.9162e+07
   17.05             44380.1             88.1334        -1.16961e+06         3.91732e+07
   17.07             44441.4             88.1796        -1.17055e+06         3.91847e+07
   17.09             44502.9             88.2249         -1.1715e+06         3.91964e+07
   17.11             44564.5             88.2694        -1.17245e+06         3.92083e+07
   17.13             44626.4             88.3129        -1.17342e+06         3.92203e+07
   17.15             44688.5             88.3557        -1.17439e+06         3.92326e+07
   17.17             44750.7             88.3975        -1.17537e+06          3.9245e+07
   17.19               44813             88.4384        -1.17635e+06         3.92576e+07
   17.21             44875.6             88.4785        -1.17735e+06         3.92704e+07
   17.23             44938.3             88.5177        -1.17834e+06         3.92833e+07
   17.25             45001.1             88.5559        -1.17935e+06         3.92965e+07
   17.27               45064             88.5932        -1.18036e+06         3.93097e+07
   17.29             45127.1             88.6297        -1.18138e+06         3.93232e+07
   17.31             45190.3             88.6652         -1.1824e+06         3.93368e+07
   17.33             45253.6             88.6997        -1.18343e+06         3.93505e+07
   17.35               45317             88.7334        -1.18446e+06         3.93644e+07
   17.37             45380.5             88.7661         -1.1855e+06         3.93784e+07
   17.39             45444.1             88.7978        -1.18654e+06         3.93926e+07
   17.41             45507.8             88.8286        -1.18759e+06         3.94069e+07
   17.43             45571.5             88.8585        -1.18865e+06         3.94214e+07
   17.45             45635.4             88.8874        -1.18971e+06         3.94359e+07
   17.47             45699.3             88.9153        -1.19077e+06         3.94506e+07
   17.49             45763.2             88.9423        -1.19184e+06         3.94654e+07
   17.51             45827.2             88.9683        -1.19291e+06         3.94803e+07
   17.53             45891.3             88.9933        -1.19399e+06         3.94954e+07
   17.55             45955.4             89.0173        -1.19507e+06         3.95105e+07
   17.57             46019.5             89.0404        -1.19615e+06         3.95258e+07
   17.59             46083.6             89.0625        -1.19724e+06         3.95411e+07
   17.61             46147.8             89.0835        -1.19833e+06         3.95566e+07
   17.63               46212             89.1036        -1.19943e+06         3.95721e+07
   17.65             46276.1             89.1227        -1.20053e+06         3.95877e+07
   17.67             46340.3             89.1408        -1.20163e+06         3.96035e+07
   17.69             46404.5             89.1579        -1.20274e+06         3.96193e+07
   17.71             46468.7             89.1741        -1.20384e+06         3.96351e+07
   17.73             46532.8             89.1891        -1.20495e+06         3.96511e+07
   17.75             46596.9             89.2032        -1.20607e+06         3.96671e+07
   17.77               46661             89.2163        -1.20719e+06         3.96832e+07
   17.79             46725.1             89.2284         -1.2083e+06         3.96994e+07
   17.81             46789.1             89.2394        -1.20942e+06         3.97156e+07
   17.83               46853             89.2495        -1.21055e+06         3.97319e+07
   17.85             46916.9             89.2585        -1.21167e+06         3.97483e+07
   17.87             46980.8             89.2665         -1.2128e+06         3.97647e+07
   17.89             47044.6             89.2735        -1.21393e+06         3.97811e+07
   17.91             47108.3             89.2794        -1.21506e+06         3.97976e+07
   17.93             47171.9             89.2844        -1.21619e+06         3.98142e+07
   17.95             47235.5             89.2883        -1.21733e+06         3.98307e+07
   17.97             47298.9             89.2912        -1.21846e+06         3.98473e+07
   17.99             47362.3              89.293         -1.2196e+06          3.9864e+07
   18.01             47425.6             89.2939        -1.22073e+06         3.98807e+07
   18.03             47488.7             89.2937        -1.22187e+06         3.98974e+07
   18.05             47551.8             89.2925        -1.22301e+06         3.99141e+07
   18.07             47614.7             89.2902        -1.22415e+06         3.99309e+07
   18.09             47677.5              89.287        -1.22529e+06         3.99476e+07
   18.11             47740.2             89.2827        -1.22643e+06         3.99644e+07
   18.13             47802.7             89.2774        -1.22757e+06         3.99812e+07
   18.15             47865.1              89.271        -1.22871e+06          3.9998e+07
   18.17             47927.4             89.2636        -1.22985e+06         4.00148e+07
   18.19             47989.5             89.2552        -1.23099e+06         4.00316e+07
   18.21             48051.5             89.2458        -1.23213e+06         4.00484e+07
   18.23             48113.3             89.2354        -1.23327e+06         4.00652e+07
   18.25             48174.9             89.2239         -1.2344e+06          4.0082e+07
   18.27             48236.4             89.2114        -1.23554e+06         4.00988e+07
   18.29             48297.6             89.1979        -1.23668e+06         4.01156e+07
   18.31             48358.7             89.1834        -1.23782e+06         4.01324e+07
   18.33             48419.7             89.1678        -1.23895e+06         4.01491e+07
   18.35             48480.4             89.1512        -1.24009e+06         4.01659e+07
   18.37             48540.9             89.1336        -1.24122e+06         4.01826e+07
   18.39             48601.3              89.115        -1.24235e+06         4.01992e+07
   18.41             48661.4             89.0954        -1.24348e+06         4.02159e+07
   18.43             48721.3             89.0748        -1.24461e+06         4.02325e+07
   18.45               48781             89.0532        -1.24574e+06         4.02491e+07
   18.47             48840.5             89.0305        -1.24686e+06         4.02656e+07
   18.49             48899.8             89.0069        -1.24799e+06         4.02821e+07
   18.51             48958.8             88.9822        -1.24911e+06         4.02986e+07
   18.53             49017.6             88.9566        -1.25023e+06          4.0315e+07
   18.55             49076.1             88.9299        -1.25134e+06         4.03314e+07
   18.57             49134.5             88.9023        -1.25246e+06         4.03477e+07
   18.59             49192.5             88.8737        -1.25357e+06         4.03639e+07
   18.61             49250.3             88.8441        -1.25468e+06         4.03802e+07
   18.63             49307.9             88.8135        -1.25579e+06         4.03963e+07
   18.65             49365.2             88.7819        -1.25689e+06         4.04124e+07
   18.67             49422.2             88.7493        -1.25799e+06         4.04284e+07
   18.69             49478.9             88.7158        -1.25909e+06         4.04444e+07
   18.71             49535.4             88.6812        -1.26019e+06         4.04603e+07
   18.73             49591.6             88.6457        -1.26128e+06         4.04761e+07
   18.75             49647.5             88.6093        -1.26237e+06         4.04918e+07
   18.77             49703.1             88.5719        -1.26345e+06         4.05075e+07
   18.79             49758.4             88.5335        -1.26453e+06         4.05231e+07
   18.81             49813.4             88.4942        -1.26561e+06         4.05386e+07
   18.83             49868.2             88.4539        -1.26668e+06          4.0554e+07
   18.85             49922.6             88.4126        -1.26775e+06         4.05694e+07
   18.87             49976.7             88.3705        -1.26882e+06         4.05846e+07
   18.89             50030.5             88.3274        -1.26988e+06         4.05998e+07
   18.91             50083.9             88.2833        -1.27094e+06         4.06148e+07
   18.93             50137.1             88.2383        -1.27199e+06         4.06298e+07
   18.95             50189.9             88.1924        -1.27304e+06         4.06447e+07
   18.97             50242.4             88.1456        -1.27408e+06         4.06595e+07
   18.99             50294.5             88.0978        -1.27512e+06         4.06741e+07
   19.01             50346.3             88.0492        -1.27616e+06         4.06887e+07
   19.03             50397.8             87.9996        -1.27719e+06         4.07032e+07
   19.05             50448.9             87.9491        -1.27821e+06         4.07175e+07
   19.07             50499.6             87.8977        -1.27923e+06         4.07318e+07
   19.09               50550             87.8455        -1.28025e+06         4.07459e+07
   19.11             50600.1             87.7923        -1.28126e+06         4.07599e+07
   19.13             50649.7             87.7383        -1.28226e+06         4.07738e+07
   19.15               50699             87.6833        -1.28326e+06         4.07876e+07
   19.17               50748             87.6275        -1.28425e+06         4.08012e+07
   19.19             50796.5             87.5709        -1.28524e+06         4.08147e+07
   19.21             50844.7             87.5134        -1.28622e+06         4.08281e+07
   19.23             50892.5              87.455         -1.2872e+06         4.08414e+07
   19.25             50939.9             87.3957        -1.28817e+06         4.08546e+07
   19.27             50986.9             87.3356        -1.28913e+06         4.08676e+07
   19.29             51033.5             87.2747        -1.29009e+06         4.08804e+07
   19.31             51079.7              87.213        -1.29104e+06         4.08932e+07
   19.33             51125.5             87.1504        -1.29199e+06         4.09058e+07
   19.35             51170.9              87.087        -1.29293e+06         4.09182e+07
   19.37             51215.9             87.0227        -1.29386e+06         4.09306e+07
   19.39             51260.5             86.9577        -1.29479e+06         4.09427e+07
   19.41             51304.6             86.8918        -1.29571e+06         4.09548e+07
   19.43             51348.3             86.8252        -1.29662e+06         4.09666e+07
   19.45             51391.6             86.7578        -1.29752e+06         4.09784e+07
   19.47             51434.5             86.6895        -1.29842e+06         4.09899e+07
   19.49               51477             86.6205        -1.29931e+06         4.10013e+07
   19.51               51519             86.5507         -1.3002e+06         4.10126e+07
   19.53             51560.6             86.4802        -1.30108e+06         4.10237e+07
   19.55             51601.7             86.4088        -1.30194e+06         4.10347e+07
   19.57             51642.4             86.3368        -1.30281e+06         4.10454e+07
   19.59             51682.6             86.2639        -1.30366e+06          4.1056e+07
   19.61             51722.4             86.1904        -1.30451e+06         4.10665e+07
   19.63             51761.7             86.1161        -1.30535e+06         4.10768e+07
   19.65             51800.6              86.041        -1.30618e+06         4.10869e+07
   19.67               51839             85.9653          -1.307e+06         4.10968e+07
   19.69             51876.9             85.8888        -1.30782e+06         4.11066e+07
   19.71             51914.3             85.8116        -1.30863e+06         4.11162e+07
   19.73             51951.3             85.7337        -1.30942e+06         4.11256e+07
   19.75             51987.8             85.6551        -1.31022e+06         4.11349e+07
   19.77             52023.9             85.5758          -1.311e+06         4.11439e+07
   19.79             52059.4             85.4959        -1.31177e+06         4.11528e+07
   19.81             52094.5             85.4152        -1.31254e+06         4.11615e+07
   19.83             52129.1             85.3339         -1.3133e+06           4.117e+07
   19.85             52163.1              85.252        -1.31404e+06         4.11783e+07
   19.87             52196.7             85.1693        -1.31478e+06         4.11864e+07
   19.89             52229.8             85.0861        -1.31552e+06         4.11944e+07
   19.91             52262.4             85.0021        -1.31624e+06         4.12021e+07
   19.93             52294.5             84.9176        -1.31695e+06         4.12097e+07
   19.95               52326             84.8324        -1.31765e+06          4.1217e+07
   19.97             52357.1             84.7466        -1.31835e+06         4.12242e+07
   19.99             52387.6             84.6602        -1.31903e+06         4.12312e+07
